File: ibe/Samples/Samples/Sucrose_0.01M.csv
Wavelength(nm),Absorbance
2700,10
2698.2,-0.348628
2696.4,0.403301
2694.6,10
2692.8,1.1986
2691,0
2689.2,10
2687.4,10
2685.6,0.121185
2683.8,10
2682,10
2680.2,-0.668418
2678.4,0
2676.6,10
2674.8,-2.61866
2673,2.61824
2671.2,10
2669.4,-1.54627
2667.6,10
2665.8,-0.65193
2664,10
2662.2,10
2660.4,10
2658.6,-1.59662
2656.8,10
2655,10
2653.2,-1.46933
2651.4,-0.443192
2649.6,10
2647.8,10
2646,1.47347
2644.2,10
2642.4,10
2640.6,-2.13757
2638.8,-3.25277
2637,0.901164
2635.2,-0.267927
2633.4,10
2631.6,1.45286
2629.8,10
2628,0
2626.2,0
2624.4,10
2622.6,10
2620.8,10
2619,10
2617.2,10
2615.4,-0.00883069
2613.6,10
2611.8,10
2610,-2.77589
2608.2,0
2606.4,10
2604.6,1.3879
2602.8,3.2718
2601,-1.84835
2599.2,10
2597.4,1.91337
2595.6,-2.14561
2593.8,10
2592,0
2590.2,1.95482
2588.4,10
2586.6,-1.65111
2584.8,10
2583,-3.78067
2581.2,0.920819
2579.4,-2.39837
2577.6,10
2575.8,1.72851
2574,10
2572.2,10
2570.4,0.847998
2568.6,0
2566.8,0.277876
2565,10
2563.2,1.29461
2561.4,10
2559.6,0
2557.8,10
2556,0
2554.2,10
2552.4,10
2550.6,0.504463
2548.8,10
2547,1.5638
2545.2,0
2543.4,10
2541.6,-0.0600673
2539.8,10
2538,-1.86328
2536.2,10
2534.4,2.22583
2532.6,0
2530.8,10
2529,10
2527.2,-0.19382
2525.4,10
2523.6,10
2521.8,0
2520,3.20586
2518.2,10
2516.4,10
2514.6,10
2512.8,-2.50507
2511,10
2509.2,10
2507.4,10
2505.6,10
2503.8,-2.09372
2502,3.56591
2500.2,10
2498.4,10
2496.6,10
2494.8,10
2493,0
2491.2,10
2489.4,10
2487.6,10
2485.8,1.96618
2484,10
2482.2,-0.74025
2480.4,0
2478.6,0
2476.8,10
2475,10
2473.2,10
2471.4,10
2469.6,-2.05934
2467.8,2.52545
2466,10
2464.2,10
2462.4,-2.35073
2460.6,-1.42194
2458.8,10
2457,-2.50663
2455.2,0
2453.4,0
2451.6,0
2449.8,2.19024
2448,0
2446.2,-0.28203
2444.4,10
2442.6,0
2440.8,10
2439,0.0984718
2437.2,10
2435.4,10
2433.6,-3.41206
2431.8,10
2430,0
2428.2,-0.780787
2426.4,2.15949
2424.6,0.111429
2422.8,0
2421,-2.36498
2419.2,1.08198
2417.4,10
2415.6,10
2413.8,0.136785
2412,10
2410.2,0.217121
2408.4,10
2406.6,-0.0931714
2404.8,2.91518
2403,10
2401.2,10
2399.4,10
2397.6,0.702842
2395.8,10
2394,10
2392.2,0
2390.4,10
2388.6,10
2386.8,10
2385,10
2383.2,10
2381.4,0.303243
2379.6,0.179467
2377.8,0
2376,-2.80414
2374.2,-0.645577
2372.4,0
2370.6,10
2368.8,10
2367,10
2365.2,0
2363.4,-0.619642
2361.6,10
2359.8,10
2358,10
2356.2,10
2354.4,0
2352.6,10
2350.8,-1.06589
2349,2.80017
2347.2,10
2345.4,10
2343.6,2.18047
2341.8,10
2340,10
2338.2,10
2336.4,0
2334.6,10
2332.8,10
2331,10
2329.2,-0.0271746
2327.4,2.15533
2325.6,10
2323.8,0.909453
2322,10
2320.2,10
2318.4,1.19079
2316.6,10
2314.8,3.24373
2313,10
2311.2,10
2309.4,0
2307.6,0
2305.8,10
2304,10
2302.2,10
2300.4,10
2298.6,-1.73452
2296.8,10
2295,0.737042
2293.2,3.13701
2291.4,10
2289.6,0
2287.8,0
2286,10
2284.2,10
2282.4,1.58981
2280.6,10
2278.8,10
2277,10
2275.2,10
2273.4,10
2271.6,10
2269.8,10
2268,-0.934853
2266.2,10
2264.4,10
2262.6,10
2260.8,10
2259,0.558416
2257.2,0
2255.4,10
2253.6,10
2251.8,10
2250,2.17043
2248.2,-2.76195
2246.4,0
2244.6,0.399461
2242.8,0
2241,10
2239.2,10
2237.4,10
2235.6,10
2233.8,10
2232,-0.558086
2230.2,0.181381
2228.4,10
2226.6,2.00231
2224.8,0
2223,-3.23754
2221.2,-1.41414
2219.4,0
2217.6,-1.78853
2215.8,10
2214,0
2212.2,10
2210.4,10
2208.6,0
2206.8,-0.498631
2205,0
2203.2,-2.43858
2201.4,3.48667
2199.6,10
2197.8,10
2196,10
2194.2,10
2192.4,10
2190.6,0
2188.8,1.30856
2187,2.30168
2185.2,10
2183.4,-0.152763
2181.6,0
2179.8,10
2178,0.0409586
2176.2,10
2174.4,0.6398
2172.6,0.646106
2170.8,0
2169,0.241954
2167.2,-3.3992
2165.4,0
2163.6,2.70115
2161.8,10
2160,-1.31343
2158.2,0
2156.4,-0.870308
2154.6,0.495412
2152.8,10
2151,10
2149.2,0
2147.4,0
2145.6,0
2143.8,10
2142,10
2140.2,2.33168
2138.4,-2.55613
2136.6,10
2134.8,3.4133
2133,0
2131.2,10
2129.4,0
2127.6,-2.71163
2125.8,10
2124,0
2122.2,10
2120.4,-2.87172
2118.6,-0.494549
2116.8,1.84724
2115,0.884948
2113.2,0.809636
2111.4,10
2109.6,10
2107.8,0.505641
2106,10
2104.2,10
2102.4,10
2100.6,10
2098.8,10
2097,-2.48514
2095.2,10
2093.4,0.974783
2091.6,10
2089.8,10
2088,10
2086.2,1.79338
2084.4,1.62754
2082.6,2.45287
2080.8,10
2079,2.06433
2077.2,-1.96731
2075.4,10
2073.6,3.34866
2071.8,10
2070,10
2068.2,10
2066.4,-0.253187
2064.6,0.877125
2062.8,10
2061,10
2059.2,10
2057.4,10
2055.6,10
2053.8,10
2052,10
2050.2,10
2048.4,0
2046.6,0
2044.8,-2.62668
2043,0
2041.2,10
2039.4,0.104735
2037.6,10
2035.8,10
2034,2.43392
2032.2,10
2030.4,0.932096
2028.6,10
2026.8,10
2025,10
2023.2,0.0129791
2021.4,0
2019.6,10
2017.8,-0.167695
2016,10
2014.2,0
2012.4,10
2010.6,10
2008.8,2.07044
2007,0
2005.2,10
2003.4,0
2001.6,10
1999.8,10
1998,10
1996.2,10
1994.4,2.81103
1992.6,10
1990.8,0.0681807
1989,10
1987.2,3.15549
1985.4,10
1983.6,-2.64182
1981.8,10
1980,0
1978.2,10
1976.4,2.63111
1974.6,2.30475
1972.8,0
1971,10
1969.2,10
1967.4,10
1965.6,10
1963.8,10
1962,0
1960.2,0
1958.4,10
1956.6,10
1954.8,10
1953,10
1951.2,10
1949.4,0
1947.6,10
1945.8,-3.10176
1944,10
1942.2,10
1940.4,10
1938.6,10
1936.8,10
1935,10
1933.2,-2.2722
1931.4,-0.109154
1929.6,10
1927.8,10
1926,10
1924.2,10
1922.4,10
1920.6,0
1918.8,10
1917,0
1915.2,10
1913.4,10
1911.6,10
1909.8,2.344
1908,10
1906.2,-0.296795
1904.4,1.94329
1902.6,10
1900.8,-0.305517
1899,10
1897.2,10
1895.4,10
1893.6,-2.73001
1891.8,2.96304
1890,2.34277
1888.2,0
1886.4,1.14114
1884.6,3.30337
1882.8,0
1881,0
1879.2,-1.76008
1877.4,10
1875.6,-0.752367
1873.8,-0.0828582
1872,2.99292
1870.2,-0.131191
1868.4,1.08906
1866.6,10
1864.8,-1.44445
1863,2.34191
1861.2,-2.09063
1859.4,-3.09203
1857.6,10
1855.8,10
1854,10
1852.2,-0.540348
1850.4,10
1848.6,10
1846.8,-3.89487
1845,0.328873
1843.2,0.734117
1841.4,10
1839.6,-1.95461
1837.8,1.17028
1836,10
1834.2,-1.45704
1832.4,3.21843
1830.6,-0.515806
1828.8,10
1827,10
1825.2,10
1823.4,10
1821.6,10
1819.8,10
1818,2.1241
1816.2,1.14842
1814.4,10
1812.6,0.0333168
1810.8,1.02017
1809,10
1807.2,10
1805.4,10
1803.6,-0.745085
1801.8,10
1800,10
1798.2,3.30664
1796.4,-0.114697
1794.6,10
1792.8,10
1791,1.32218
1789.2,-0.353084
1787.4,10
1785.6,-0.836421
1783.8,0.568455
1782,10
1780.2,0
1778.4,-0.381157
1776.6,3.51219
1774.8,0.332826
1773,-0.297215
1771.2,0.166367
1769.4,10
1767.6,0.239488
1765.8,0.0579276
1764,0.259006
1762.2,10
1760.4,-0.463336
1758.6,0.183313
1756.8,-0.0345536
1755,0.0472165
1753.2,0.156558
1751.4,-0.175056
1749.6,0.102966
1747.8,0.104696
1746,-0.104982
1744.2,-0.105243
1742.4,0.0268941
1740.6,0.148478
1738.8,-0.0132803
1737,0.0685111
1735.2,-0.109526
1733.4,0.0735633
1731.6,-0.0452999
1729.8,-0.0250741
1728,0.0418232
1726.2,-0.0159081
1724.4,-0.0160632
1722.6,-0.100557
1720.8,0.0257581
1719,0.0399901
1717.2,-0.0494161
1715.4,0.035463
1713.6,0.0269128
1711.8,0.0307595
1710,-0.0354145
1708.2,0.0162889
1706.4,0.00105401
1704.6,0.0130718
1702.8,0.0499851
1701,-0.0693833
1699.2,0.0692799
1697.4,0.0575729
1695.6,-0.0370329
1693.8,0.0178925
1692,-0.0241721
1690.2,0.0141732
1688.4,0.0455611
1686.6,-0.0150329
1684.8,0.0312692
1683,0.0432689
1681.2,0.000531439
1679.4,-0.0256041
1677.6,-0.0106373
1675.8,0.0504251
1674,0.00548311
1672.2,0.0253327
1670.4,-0.000765916
1668.6,0.0199562
1666.8,-0.0247949
1665,-0.0217764
1663.2,0.0789492
1661.4,0.0178259
1659.6,-0.018968
1657.8,-0.0170733
1656,-0.0243728
1654.2,0.0284169
1652.4,-0.0493239
1650.6,-0.0194437
1648.8,0.00266725
1647,0.0807668
1645.2,-0.0243543
1643.4,0.0341033
1641.6,0.0055423
1639.8,-0.0391053
1638,0.0644032
1636.2,0.0356692
1634.4,0.0497564
1632.6,0.122457
1630.8,-0.130568
1629,0.167981
1627.2,-0.0967748
1625.4,-0.0481141
1623.6,0.0676334
1621.8,-0.028105
1620,0.0492667
1618.2,-0.00685895
1616.4,-0.0461738
1614.6,0.149613
1612.8,0.12869
1611,0.0547202
1609.2,-0.102604
1607.4,-0.011946
1605.6,0.0491758
1603.8,0.0488367
1602,-0.0301272
1600.2,-0.128967
1598.4,0.0679316
1596.6,-0.245074
1594.8,0.326273
1593,0.558271
1591.2,-0.275878
1589.4,0.014151
1587.6,0.021138
1585.8,1.48478
1584,0.0264541
1582.2,0.0606559
1580.4,0.235977
1578.6,0.0936049
1576.8,-0.81979
1575,0.016836
1573.2,0.169843
1571.4,-0.50649
1569.6,0.230046
1567.8,10
1566,0.737626
1564.2,-0.382296
1562.4,0.45407
1560.6,10
1558.8,0.487331
1557,10
1555.2,0.136688
1553.4,1.01965
1551.6,-2.5069
1549.8,0.79546
1548,-0.0120683
1546.2,0.0613498
1544.4,0.323759
1542.6,-0.481025
1540.8,0.119718
1539,10
1537.2,-0.156619
1535.4,-0.17181
1533.6,10
1531.8,10
1530,-0.072366
1528.2,-0.213229
1526.4,10
1524.6,-0.290902
1522.8,-0.176543
1521,0.0840271
1519.2,-0.114985
1517.4,0.11931
1515.6,0.133143
1513.8,0.164084
1512,-0.299963
1510.2,1.38469
1508.4,-0.603991
1506.6,-0.696369
1504.8,0.126457
1503,-0.429478
1501.2,10
1499.4,-0.267612
1497.6,0.474099
1495.8,-0.601313
1494,-0.64245
1492.2,0.5374
1490.4,0.228225
1488.6,0.104751
1486.8,-1.03527
1485,10
1483.2,0.340007
1481.4,-0.39281
1479.6,-0.323887
1477.8,-0.162902
1476,0.171329
1474.2,-0.415839
1472.4,-0.686913
1470.6,-0.0606561
1468.8,-0.116569
1467,-0.350632
1465.2,0.126124
1463.4,-0.599762
1461.6,0.24864
1459.8,-0.00732037
1458,-0.000257021
1456.2,10
1454.4,-0.0143338
1452.6,0.012052
1450.8,0.295182
1449,0.367771
1447.2,0.0610977
1445.4,0.0616089
1443.6,-0.2793
1441.8,0.0847573
1440,0.316656
1438.2,-0.197019
1436.4,0.0509512
1434.6,0.541861
1432.8,-0.069586
1431,0.210922
1429.2,-0.1266
1427.4,-0.0197026
1425.6,0.13445
1423.8,-0.278205
1422,-0.120526
1420.2,-0.0646016
1418.4,0.0710303
1416.6,0.212099
1414.8,0.00781638
1413,-0.128401
1411.2,0.200617
1409.4,0.36618
1407.6,0.00472882
1405.8,0.132327
1404,-0.855814
1402.2,-0.0425534
1400.4,0.447432
1398.6,0.111662
1396.8,0.290801
1395,0.113208
1393.2,0.222407
1391.4,-0.126366
1389.6,-0.0648825
1387.8,0.0721002
1386,-0.0169864
1384.2,0.0586786
1382.4,0.0917619
1380.6,-0.0670781
1378.8,-0.0221917
1377,0.00585917
1375.2,-0.0268113
1373.4,-0.0031206
1371.6,-0.00435371
1369.8,-0.0134044
1368,-0.00904662
1366.2,-0.000106829
1364.4,-0.00459297
1362.6,-0.0074114
1360.8,-0.00151666
1359,-0.00626569
1357.2,-0.00400574
1355.4,0.0022404
1353.6,-0.00276016
1351.8,-0.00677746
1350,-0.00261682
1348.2,-0.000890271
1346.4,-0.00113811
1344.6,-0.00258962
1342.8,-0.00128814
1341,-0.0016251
1339.2,-0.000495639
1337.4,-0.00257829
1335.6,-0.00169096
1333.8,-0.000928183
1332,-0.00227116
1330.2,-0.00189137
1328.4,-4.20632E-005
1326.6,-0.00136922
1324.8,-0.00160888
1323,-0.000590511
1321.2,-0.00143387
1319.4,-0.00082278
1317.6,-0.000849323
1315.8,-0.000331858
1314,-0.000255741
1312.2,0.00017257
1310.4,-0.000294958
1308.6,5.10493E-005
1306.8,0.00024983
1305,0.000255893
1303.2,0.0008579
1301.4,0.000667871
1299.6,0.000762828
1297.8,0.00103544
1296,0.000895811
1294.2,0.00119059
1292.4,0.00085383
1290.6,0.00133849
1288.8,0.00122275
1287,0.00100873
1285.2,0.00131544
1283.4,0.00139466
1281.6,0.00131665
1279.8,0.00177872
1278,0.00120019
1276.2,0.00174051
1274.4,0.00202506
1272.6,0.00156772
1270.8,0.00188369
1269,0.00168343
1267.2,0.00170975
1265.4,0.00183979
1263.6,0.0019828
1261.8,0.00182445
1260,0.00165791
1258.2,0.00193638
1256.4,0.00185763
1254.6,0.00193099
1252.8,0.00166639
1251,0.00212685
1249.2,0.00199935
1247.4,0.00154525
1245.6,0.00203273
1243.8,0.00203263
1242,0.00188597
1240.2,0.00234565
1238.4,0.00197373
1236.6,0.00198769
1234.8,0.00236584
1233,0.00209659
1231.2,0.00234211
1229.4,0.00198779
1227.6,0.00232745
1225.8,0.00229039
1224,0.00259101
1222.2,0.00268119
1220.4,0.00260216
1218.6,0.00250772
1216.8,0.0027078
1215,0.00243661
1213.2,0.00235414
1211.4,0.0029078
1209.6,0.00308382
1207.8,0.00264288
1206,0.00290675
1204.2,0.00288707
1202.4,0.00286458
1200.6,0.00300966
1198.8,0.00350167
1197,0.00340825
1195.2,0.0035032
1193.4,0.00369369
1191.6,0.00331567
1189.8,0.00332013
1188,0.00363187
1186.2,0.00332296
1184.4,0.00331359
1182.6,0.00320401
1180.8,0.00283889
1179,0.00327478
1177.2,0.00312664
1175.4,0.00322163
1173.6,0.0036306
1171.8,0.00294405
1170,0.00356058
1168.2,0.00319278
1166.4,0.00334609
1164.6,0.00306876
1162.8,0.00314143
1161,0.0031973
1159.2,0.00284876
1157.4,0.00324957
1155.6,0.00284203
1153.8,0.00288697
1152,0.00284207
1150.2,0.00318745
1148.4,0.00279669
1146.6,0.0029534
1144.8,0.00287797
1143,0.00273861
1141.2,0.00343163
1139.4,0.00349102
1137.6,0.00370856
1135.8,0.00395058
1134,0.00380396
1132.2,0.0042349
1130.4,0.00445874
1128.6,0.00421996
1126.8,0.00455126
1125,0.00448786
1123.2,0.00433608
1121.4,0.00485588
1119.6,0.00459515
1117.8,0.00481529
1116,0.00498595
1114.2,0.00474812
1112.4,0.00487543
1110.6,0.00480161
1108.8,0.00496666
1107,0.00510603
1105.2,0.00493444
1103.4,0.00510252
1101.6,0.00514896
1099.8,0.0050238
1098,0.00535879
1096.2,0.00502563
1094.4,0.00507473
1092.6,0.00531097
1090.8,0.00526679
1089,0.00530729
1087.2,0.00531899
1085.4,0.00522826
1083.6,0.00533192
1081.8,0.00536601
1080,0.00519947
1078.2,0.00552645
1076.4,0.00527061
1074.6,0.00546149
1072.8,0.00571158
1071,0.00550453
1069.2,0.00567
1067.4,0.00573695
1065.6,0.00567758
1063.8,0.00572313
1062,0.00567749
1060.2,0.00569358
1058.4,0.00582491
1056.6,0.00573564
1054.8,0.00588067
1053,0.00579561
1051.2,0.00577837
1049.4,0.00605085
1047.6,0.00566525
1045.8,0.00584692
1044,0.00598201
1042.2,0.00578319
1040.4,0.00596428
1038.6,0.00583244
1036.8,0.00568444
1035,0.00612366
1033.2,0.00577016
1031.4,0.00591921
1029.6,0.00610485
1027.8,0.00585872
1026,0.00590284
1024.2,0.00592332
1022.4,0.00592916
1020.6,0.00603838
1018.8,0.00595152
1017,0.00592662
1015.2,0.00590371
1013.4,0.0058998
1011.6,0.00569297
1009.8,0.00603327
1008,0.00609514
1006.2,0.00591856
1004.4,0.00590714
1002.6,0.00587539
1000.8,0.0061381
999.0000,0.00607895
997.2000,0.0058322
995.4000,0.00613627
993.6000,0.00571996
991.8000,0.00593355
990.0000,0.00611524
988.2000,0.0054918
986.4000,0.00627748
984.6000,0.00573166
982.8000,0.00602473
981.0000,0.00613341
979.2000,0.00584143
977.4000,0.00638627
975.6000,0.00586825
973.8000,0.0059659
972.0000,0.00577113
970.2000,0.00567747
968.4000,0.0060068
966.6000,0.00559695
964.8000,0.00572369
963.0000,0.00590176
961.2000,0.00581229
959.4000,0.00583284
957.6000,0.0059978
955.8000,0.00603307
954.0000,0.00606419
952.2000,0.0061074
950.4000,0.00564529
948.6000,0.00701482
946.8000,0.00616409
945.0000,0.00627536
943.2000,0.00631205
941.4000,0.0061552
939.6000,0.0066499
937.8000,0.00641899
936.0000,0.00631269
934.2000,0.00672318
932.4000,0.00645077
930.6000,0.00691124
928.8000,0.00680424
927.0000,0.0067205
925.2000,0.00693213
923.4000,0.00677536
921.6000,0.00690159
919.8000,0.0070325
918.0000,0.00635857
916.2000,0.00730253
914.4000,0.00727936
912.6000,0.00650759
910.8000,0.00703109
909.0000,0.00670673
907.2000,0.00657668
905.4000,0.00735015
903.6000,0.00633687
901.8000,0.00707453
900.0000,0.0073939
898.2000,0.00684063
896.4000,0.0074371
894.6000,0.00669172
892.8000,0.00743256
891.0000,0.00734602
889.2000,0.00700775
887.4000,0.00684807
885.6000,0.00735305
883.8000,0.00626785
882.0000,0.00771638
880.2000,0.00758801
878.4000,0.00689584
876.6000,0.00736174
874.8000,0.00705238
873.0000,0.00702904
871.2000,0.00701072
869.4000,0.00683686
867.6000,0.00624447
865.8000,0.00669972
864.0000,0.00696108
862.2000,0.00732051
860.4000,0.00682879
858.6000,0.00757309
856.8000,0.00753099
855.0000,0.00788949
853.2000,0.00747692
851.4000,0.00748713
849.6000,0.00938321
847.8000,0.00926447
846.0000,0.00980017
844.2000,0.00968322
842.4000,0.00977647
840.6000,0.00982428
838.8000,0.0097716
837.0000,0.00989057
835.2000,0.00982583
833.4000,0.0100698
831.6000,0.0100304
829.8000,0.00999362
828.0000,0.00983848
826.2000,0.00991759
824.4000,0.0100349
822.6000,0.0101765
820.8000,0.010019
819.0000,0.00993909
817.2000,0.00993381
815.4000,0.0101988
813.6000,0.00984762
811.8000,0.00982375
810.0000,0.00996398
808.2000,0.0100714
806.4000,0.0100218
804.6000,0.00973216
802.8000,0.0100443
801.0000,0.0101009
799.2000,0.0100281
797.4000,0.00997711
795.6000,0.00998667
793.8000,0.0103843
792.0000,0.0098857
790.2000,0.0104868
788.4000,0.0097767
786.6000,0.00993274
784.8000,0.0100561
783.0000,0.00990553
781.2000,0.00989312
779.4000,0.00978443
777.6000,0.0102314
775.8000,0.0102395
774.0000,0.00985125
772.2000,0.0099976
770.4000,0.00993624
768.6000,0.010127
766.8000,0.00986146
765.0000,0.0101576
763.2000,0.0100758
761.4000,0.00973418
759.6000,0.00964021
757.8000,0.00990399
756.0000,0.00958272
754.2000,0.00966296
752.4000,0.00995869
750.6000,0.00974006
748.8000,0.0102879
747.0000,0.00965518
745.2000,0.0100719
743.4000,0.0100288
741.6000,0.00981703
739.8000,0.00952112
738.0000,0.00975936
736.2000,0.00944902
734.4000,0.00973115
732.6000,0.00965863
730.8000,0.00986782
729.0000,0.00975396
727.2000,0.00955712
725.4000,0.00979126
723.6000,0.00985487
721.8000,0.00986099
720.0000,0.00983527
718.2000,0.00987269
716.4000,0.00981608
714.6000,0.00957363
712.8000,0.00965993
711.0000,0.00958094
709.2000,0.0094644
707.4000,0.00965007
705.6000,0.00950669
703.8000,0.00994064
702.0000,0.00968292
700.2000,0.00980129
698.4000,0.00949273
696.6000,0.00950889
694.8000,0.00974897
693.0000,0.00978936
691.2000,0.00959056
689.4000,0.00972129
687.6000,0.00976506
685.8000,0.00979435
684.0000,0.0097596
682.2000,0.00956751
680.4000,0.00949968
678.6000,0.00936818
676.8000,0.00974416
675.0000,0.00961972
673.2000,0.00965239
671.4000,0.0096961
669.6000,0.00939437
667.8000,0.00952136
666.0000,0.00956918
664.2000,0.00972895
662.4000,0.00955254
660.6000,0.00934763
658.8000,0.00949475
657.0000,0.00953853
655.2000,0.0093617
653.4000,0.00957054
651.6000,0.00970204
649.8000,0.00956347
647.9999,0.00966581
646.2000,0.00959786
644.4000,0.00952974
642.6000,0.00965821
640.8000,0.00943025
638.9999,0.0096948
637.2000,0.00975372
635.4000,0.00955385
633.6000,0.00945739
631.8000,0.00950384
629.9999,0.0095507
628.2000,0.00966237
626.4000,0.00952475
624.6000,0.00968987
622.8000,0.00957933
620.9999,0.00959578
619.2000,0.00919207
617.4000,0.00939972
615.6000,0.00947978
613.8000,0.0093579
611.9999,0.0093345
610.2000,0.0094078
608.4000,0.00947283
606.6000,0.0091123
604.8000,0.00939176
602.9999,0.00943601
601.2000,0.00931045
599.4000,0.00924089
597.6000,0.00912347
595.8000,0.00942241
593.9999,0.00914847
592.2000,0.00925111
590.4000,0.00916956
588.6000,0.00918963
586.8000,0.00930427
584.9999,0.00902707
583.2000,0.00927653
581.4000,0.00910197
579.6000,0.00919088
577.8000,0.00928045
575.9999,0.00915994
574.2000,0.00904833
572.4000,0.00894255
570.6000,0.0092046
568.8000,0.00927588
566.9999,0.00917639
565.2000,0.0089947
563.4000,0.00912216
561.6000,0.00905469
559.8000,0.00908599
557.9999,0.00895098
556.2000,0.00907749
554.4000,0.00910713
552.6000,0.00912519
550.8000,0.00895253
548.9999,0.00909603
547.2000,0.00920068
545.4000,0.00916528
543.6000,0.00906948
541.8000,0.00883059
539.9999,0.00898894
538.2000,0.00912246
536.4000,0.00884033
534.6000,0.0091597
532.8000,0.00900711
530.9999,0.00909514
529.2000,0.00927457
527.4000,0.00879168
525.6000,0.00878164
523.8000,0.00895419
521.9999,0.00906128
520.2000,0.00891885
518.4000,0.00881574
516.6000,0.0089549
514.8000,0.00907957
512.9999,0.00909929
511.2000,0.00917633
509.4000,0.00870971
507.6000,0.00890655
505.8000,0.00859205
504.0000,0.00890412
502.2000,0.00901341
500.4000,0.00879881
498.6000,0.00908225
496.8000,0.00895128
495.0000,0.00896144
493.2000,0.00923959
491.4000,0.00904536
489.6000,0.00935951
487.8000,0.00924024
486.0000,0.00923733
484.2000,0.00924838
482.4000,0.00909508
480.6000,0.00927576
478.8000,0.00933023
477.0000,0.00928075
475.2000,0.00937145
473.4000,0.00945834
471.6000,0.00953021
469.8000,0.00954352
468.0000,0.00960642
466.2000,0.00968981
464.4000,0.00938861
462.6000,0.00948133
460.8000,0.00986918
459.0000,0.0096395
457.2000,0.00969765
455.4000,0.00971594
453.6000,0.00998542
451.8000,0.00986182
450.0000,0.00995638
448.2000,0.0101955
446.4000,0.0101606
444.6000,0.0100397
442.8000,0.0102288
441.0000,0.0102353
439.2000,0.0103627
437.4000,0.0103041
435.6000,0.0101928
433.8000,0.0103678
432.0000,0.0101096
430.2000,0.0104966
428.4000,0.0106557
426.6000,0.010645
424.8000,0.0105577
423.0000,0.0108811
421.2000,0.0105403
419.4000,0.0107592
417.6000,0.0106445
415.8000,0.0110873
414.0000,0.0110347
412.2000,0.010976
410.4000,0.0110281
408.6000,0.0110324
406.8000,0.0107811
405.0000,0.0108511
403.2000,0.0108653
401.4000,0.0110668
399.6000,0.0110881
397.8000,0.0114969
396.0000,0.0118597
394.2000,0.0113104
392.4000,0.0116807
390.6000,0.011565
388.8000,0.011836
387.0000,0.0117664
385.2000,0.0118427
383.4000,0.0114443
381.6000,0.0117654
379.8000,0.0122476
378.0000,0.0120621
376.2000,0.0121685
374.4000,0.0120535
372.6000,0.012226
370.8000,0.0123843
369.0000,0.0126058
367.2000,0.0123989
365.4000,0.012798
363.6000,0.0126468
361.8000,0.0127931
360.0000,0.0124423
358.2000,0.0133437
356.4000,0.0132072
354.6000,0.0131436
352.8000,0.0130221
351.0000,0.0136579
349.2000,0.0137501
347.4000,0.0137556
345.6000,0.0140106
343.8000,0.0142253
342.0000,0.0141386
340.2000,0.0134256
338.4000,0.0152755
336.6000,0.0152451
334.8000,0.0160678
333.0000,0.0155373
331.2000,0.0158709
329.4000,0.0160185
327.6000,0.0160441
325.8000,0.0163906
324.0000,0.0162986
322.2000,0.0160231
320.4000,0.0173798
318.6000,0.0173824
316.8000,0.0171764
315.0000,0.0174412
313.2000,0.0178261
311.4000,0.0181552
309.6000,0.0188587
307.8000,0.0185074
306.0000,0.0190418
304.2000,0.0191824
302.4000,0.0196469
300.6000,0.0199602
298.8000,0.0205581
297.0000,0.0208232
295.2000,0.0213863
293.4000,0.0213057
291.6000,0.0218708
289.8000,0.0229905
288.0000,0.0230976
286.2000,0.0234023
284.4000,0.024123
282.6000,0.0248027
280.8000,0.0249483
279.0000,0.0255474
277.2000,0.0257353
275.4000,0.0258537
273.6000,0.0262915
271.8000,0.0274635
270.0000,0.0272242
268.2000,0.0276344
266.4000,0.0282395
264.6000,0.0285776
262.8000,0.0289372
261.0000,0.0298525
259.2000,0.0300638
257.4000,0.0300521
255.6000,0.0305379
253.8000,0.0311846
252.0000,0.0315281
250.2000,0.0323522
248.4000,0.0326275
246.6000,0.033389
244.8000,0.0341954
243.0000,0.0352394
241.2000,0.0363861
239.4000,0.0376999
237.6000,0.038799
235.8000,0.0403517
234.0000,0.0423711
232.2000,0.0439847
230.4000,0.0466446
228.6000,0.0484655
226.8000,0.0507037
225.0000,0.0528429
223.2000,0.0553218
221.4000,0.0582474
219.6000,0.0608973
217.8000,0.0641996
216.0000,0.0669459
214.2000,0.0717315
212.4000,0.0764674
210.6000,0.0819671
208.8000,0.0886976
207.0000,0.100207
205.2000,0.116496
203.4000,0.143233
201.6000,0.189175
200.0000,0.25699